roll,pitch,yaw,accel_x,accel_y,accel_z,gyro_x,gyro_y,gyro_z,mag_x,mag_y,mag_z
1.2149675484588631,-0.9921139714082263,-179.9256728482845,1255,935,16750,0,0,0,132.5,-31.75,-728.125
1.937883906527963,-1.734016870502315,-179.8815549955268,1266,918,16766,-1,0,0,130.625,-34.5,-729.875
2.378566967814828,-2.297774903482376,-179.8599427837968,1262,929,16790,-2,-1,0,129.75,-35.75,-727.625
2.6694040039598868,-2.725180500596164,-179.85213642188876,1253,967,16779,-1,1,0,130.5,-36.25,-726.375
2.7626938708442115,-3.082626404024453,-179.8604679211786,1290,932,16798,0,2,0,129.0,-33.375,-727.625
2.9420697235955764,-3.3873753735582257,-179.8646183239415,1317,1027,16785,0,-1,1,132.25,-36.625,-725.25
3.0596763378497442,-3.5418541365450364,-179.86637984317392,1202,984,16777,-1,-1,-1,130.25,-39.5,-725.5
3.081426133447828,-3.7533566955617887,-179.87439947452333,1326,956,16787,-1,-1,-1,132.75,-38.0,-725.625
3.1085261337894683,-3.8735766696185565,-179.8822491555905,1264,984,16785,-2,-1,1,130.625,-37.875,-729.0
3.064997284661026,-3.959482378367366,-179.89236503015547,1252,932,16783,-1,-1,1,132.125,-36.5,-729.25
3.0832946777104424,-4.037225329157725,-179.90197667629184,1270,970,16797,-1,0,0,132.0,-37.125,-723.125
3.0554193659931603,-4.112858339078699,-179.91156029540642,1289,929,16788,0,0,0,128.875,-36.625,-725.875
3.029566300578847,-4.176889359007828,-179.93001512262975,1294,979,16781,-1,0,1,129.5,-33.875,-727.125
3.029519671323315,-4.210492051907273,-179.95046378011546,1268,1005,16785,-1,-2,1,131.125,-33.625,-728.625
3.065109163952689,-4.197097324604061,-179.959133259434,1221,975,16782,1,1,1,131.625,-36.875,-727.75
3.0710337686664064,-4.255810741713432,-179.9615016568511,1315,929,16808,-2,0,1,130.0,-38.25,-725.375
3.048195153201521,-4.246622417099364,-179.9779834612806,1241,966,16779,0,2,0,130.25,-34.75,-726.25
3.0308256152434634,-4.284793032809873,-179.990517319413,1299,957,16781,-4,0,1,129.875,-35.375,-729.5
3.0402521153000173,-4.319314775744457,-180.00241399738093,1310,946,16780,-1,2,-2,133.125,-36.625,-727.375
3.0481336990836048,-4.240667595581114,-180.01022281336427,1162,951,16777,-3,0,1,132.75,-36.625,-725.875
3.059453692329062,-4.318257753293086,180.01188189197373,1351,938,16801,-1,-1,1,128.5,-37.625,-728.5
3.0457107777483055,-4.288238077442469,179.99536283686865,1224,961,16786,0,-2,-1,132.875,-35.125,-727.5
3.042799298246168,-4.309873848132239,179.99530827685217,1287,892,16802,-1,-2,0,130.625,-38.5,-724.75
3.0651164387784586,-4.312105465472975,179.99205870267141,1268,941,16788,-2,-1,1,130.625,-37.875,-725.875
3.0593092181048114,-4.292488883238671,179.9850288179887,1243,932,16790,-1,1,0,131.125,-37.0,-725.125
3.0568441103964883,-4.288113448679787,179.97154411556016,1257,965,16782,0,1,0,132.625,-35.5,-726.625
3.0784494662578807,-4.3258317647538815,179.9652784724551,1311,960,16778,-2,0,1,131.375,-37.125,-723.75
3.1215700971533322,-4.325927442127756,179.94986457973724,1272,1032,16768,0,1,1,131.375,-35.875,-730.875
3.076929062408735,-4.347361462368011,179.93404451865717,1297,953,16775,-4,-1,-1,129.625,-35.375,-728.0
3.1309553210088823,-4.312376822208141,179.92465952659705,1226,991,16776,2,-2,-1,131.625,-37.875,-726.625
3.1527647253251074,-4.345258488310589,179.91236921070725,1310,994,16781,0,-1,-1,134.25,-37.25,-725.125
3.105858883774926,-4.338293563516827,179.9004046396203,1264,949,16777,1,-1,1,128.625,-35.75,-729.375
3.1525427146751137,-4.334503266533699,179.89980706966452,1263,958,16769,-1,-3,0,133.875,-39.875,-727.625
3.148337211343928,-4.334123692305477,179.90016137142257,1270,918,16791,0,-2,0,131.25,-39.875,-729.875
3.1885808685130663,-4.323415948636118,179.90090697751322,1262,968,16792,-1,1,1,133.25,-40.25,-728.5
3.2254192539587536,-4.332743622290651,179.89707996102524,1283,994,16775,-3,0,0,129.625,-39.875,-725.375
3.150852937763291,-4.357789218395451,179.88547693117002,1306,945,16808,-1,-1,1,131.625,-36.25,-727.875
3.1851387503513706,-4.347854369097583,179.8792793085576,1263,992,16776,-3,-2,0,130.625,-39.0,-729.5
3.1485272426581647,-4.346075188307055,179.86458672284314,1274,969,16774,-1,0,-1,130.0,-36.125,-724.625
3.1470402790644134,-4.354955443632627,179.85881113042166,1287,958,16781,1,-1,1,129.375,-37.625,-724.625
3.14741469519079,-4.354789873912437,179.85393319889562,1280,958,16789,-1,0,1,131.375,-38.0,-727.0
3.131782495271924,-4.347694791686016,179.84439026458978,1267,966,16774,-1,-1,1,130.875,-36.625,-727.25
3.117237757871642,-4.365202140582518,179.8337516028006,1301,959,16782,1,0,0,129.75,-36.5,-729.0
3.1586485025718805,-4.356667629990468,179.8317277363313,1275,967,16802,-1,1,0,131.125,-39.375,-728.75
3.1216448680196858,-4.360592335572068,179.81708717218916,1284,971,16800,-2,-1,0,130.25,-35.5,-728.0
3.1035286114073246,-4.350594134303887,179.80771249978218,1268,947,16789,0,0,0,131.75,-36.5,-727.625
3.106989916608876,-4.345387956924735,179.80367246755097,1273,945,16778,-2,1,1,131.75,-37.625,-728.625
3.079649032970162,-4.356301671849968,179.7920695416899,1291,964,16787,-2,0,2,130.5,-34.75,-723.875
3.0822052421999544,-4.348919920806114,179.78498762024432,1270,952,16784,-1,0,1,129.0,-36.375,-725.875
3.1286310412884624,-4.365776312000755,179.78407161110704,1303,962,16807,0,0,1,132.125,-38.75,-728.5
3.1086560623796835,-4.354705315660891,179.77557008794884,1270,943,16788,0,1,0,132.0,-36.625,-727.375
3.107521124325728,-4.3350228468661705,179.7623788444939,1252,989,16806,-1,-1,1,131.75,-35.25,-726.5
3.068869319503569,-4.330286606257665,179.74745769999674,1264,955,16779,-2,-1,0,129.625,-34.5,-727.625
3.109722825086606,-4.369606476580648,179.73156345208844,1323,1029,16778,1,-1,1,128.5,-34.875,-731.0
3.0845022115922047,-4.377818834333963,179.7241112517074,1293,940,16786,-4,-1,1,129.375,-36.0,-724.375
3.091543426339697,-4.332373284420556,179.71783215116102,1225,944,16786,0,0,0,131.25,-37.0,-729.5
3.1508462708113454,-4.359428798772181,179.71428624702506,1309,998,16769,-1,0,2,128.75,-38.0,-729.5
3.121879892918196,-4.341376896122103,179.71428885691188,1257,912,16793,0,0,2,132.0,-37.75,-725.375
3.159176950846304,-4.367691380487776,179.71343070654493,1312,962,16786,1,0,1,131.0,-38.875,-728.875
3.169304358344442,-4.336856850719118,179.71420751840938,1240,938,16786,1,-1,1,131.25,-39.125,-726.375
3.1544887480532595,-4.370413133863128,179.7081318283073,1316,952,16786,1,-2,1,133.25,-37.25,-727.0
3.111828667949613,-4.358684469898037,179.69484620637303,1263,952,16779,1,-2,0,129.125,-35.25,-729.25
3.140538163069398,-4.35840104242032,179.69152094681334,1281,964,16788,1,0,1,128.5,-37.75,-725.125
3.1435236828523303,-4.3478870728442365,179.69022344013067,1267,940,16789,-1,0,1,130.375,-38.375,-729.0
3.0908266246543756,-4.345173820113856,179.67864222483047,1274,942,16774,-2,1,1,131.5,-34.875,-726.875
3.1008914657370394,-4.330144832241452,179.67291363427753,1257,954,16792,0,0,1,131.25,-36.625,-726.625
3.0285895283961963,-4.359333993749563,179.66170690664376,1313,908,16790,-1,1,1,132.125,-34.0,-727.0
3.074406739910742,-4.339437291682227,179.66271871442316,1254,937,16780,-2,0,1,132.75,-38.125,-728.0
3.064333850442404,-4.32827809515163,179.6586511321936,1266,909,16605,4,10,1,133.75,-36.125,-726.875
3.148260583567278,-4.35469239013776,179.6570891834013,1304,991,16780,2,-2,1,132.875,-38.625,-728.875
3.080752350133263,-4.3466811856917875,179.63766636577864,1265,954,16785,-3,-1,-1,134.0,-33.5,-726.5
3.1160820030484135,-4.3574981012453335,179.6340804547696,1292,962,16781,1,0,1,131.5,-37.375,-728.125
3.1488066258820595,-4.360230164617775,179.63223814416963,1283,965,16790,-2,-1,1,135.75,-38.125,-725.75
3.1595860421643494,-4.346234857647969,179.62881691317344,1265,960,16792,0,1,1,131.875,-37.75,-726.625
3.2064196210498515,-4.357468828269515,179.6293071017007,1291,979,16785,-2,-1,1,132.625,-39.625,-728.375
3.1432647577014716,-4.332354088748047,179.62680822758213,1247,903,16799,-1,0,1,130.375,-37.5,-728.375
3.2682653301938878,-4.357024297057239,179.61997816666548,1305,1079,16750,-3,0,0,130.0,-39.375,-726.875
3.1066855026508438,-4.321908273615154,179.6265218254871,1232,768,16808,-4,-1,-1,131.75,-39.5,-729.625
3.2462060738508347,-4.335988906095246,179.61765399338842,1284,1080,16756,6,-2,0,132.25,-38.5,-727.625
3.148953093559174,-4.3395482761216995,179.6142402122927,1273,894,16768,-8,-2,1,130.625,-37.25,-726.125
3.1229737906061774,-4.30687928044309,179.61023639450997,1229,920,16791,5,-1,1,131.0,-36.75,-725.5
3.2984093761953073,-4.36157829776543,179.59992250276795,1339,1148,16757,-3,0,1,129.875,-38.75,-726.125
3.003297979874758,-4.3161433652491965,179.5914072889131,1213,743,16816,-3,-2,1,129.375,-33.0,-727.375
3.1349762418658123,-4.3655104100341635,179.56692662646498,1335,1107,16771,3,0,-3,128.875,-34.25,-726.375
3.147209411741323,-4.3511685633778425,179.5632702787971,1264,968,16790,-7,0,1,130.5,-37.625,-728.25
3.0484102630098833,-4.298017364193519,179.55735854223386,1207,853,16809,5,0,0,132.125,-35.375,-730.25
3.1653334455430886,-4.365394620680991,179.52599909190266,1353,1164,16750,-3,1,-1,132.125,-32.25,-725.5
2.9523578735363434,-4.323269904458468,179.52412146523505,1223,748,16811,-4,-1,1,131.375,-34.125,-726.625
3.1162518781325392,-4.3316702000626215,179.52049780730266,1280,1040,16776,6,-1,1,130.375,-37.375,-724.625
3.1567734487455863,-4.338195038266597,179.5116285223718,1283,1015,16773,-6,1,1,131.0,-36.5,-729.125
3.1260280893151475,-4.311848514433457,179.51315668330778,1239,876,16781,3,0,-1,132.125,-38.5,-726.375
3.228622078511602,-4.356994977188789,179.50935507614804,1329,1041,16782,1,0,1,131.0,-38.75,-728.875
3.0862982583804808,-4.346423133086871,179.49904606487746,1257,871,16781,0,-3,1,130.625,-34.125,-728.0
3.113177317063607,-4.345471338270646,179.49714913932942,1272,946,16782,1,-2,1,130.125,-37.25,-727.375
3.083223709160608,-4.328468661169692,179.48828936737706,1252,941,16771,-2,0,1,129.25,-35.0,-728.625
3.0861897732014967,-4.318213918775422,179.48408786298972,1257,937,16799,0,-1,1,131.5,-36.25,-728.375
3.117755777550355,-4.311425438248142,179.48198928190797,1261,951,16796,-3,0,0,129.5,-37.625,-726.75
3.1523014269783545,-4.316028298676582,179.48592809233386,1270,934,16790,0,-2,1,132.125,-39.25,-729.625
3.085004204367408,-4.319414329256597,179.47610040604323,1273,923,16780,-2,1,1,129.125,-34.5,-727.875
3.0992372404872133,-4.336761651873331,179.47592083659836,1294,929,16797,-1,0,1,132.625,-37.375,-728.125
3.192048389787504,-4.354742550061486,179.48515651498445,1296,955,16770,0,-1,1,129.5,-41.25,-728.0
3.1757543256712504,-4.357961942601973,179.48298292634084,1282,941,16784,-1,-1,1,127.375,-37.75,-727.375
3.177623124663401,-4.354655132601976,179.4804569399416,1275,957,16794,-2,-1,1,130.25,-37.875,-728.875
3.153611100985465,-4.356871106965365,179.46946726141334,1278,967,16784,-1,-2,0,129.625,-35.5,-723.875
3.161726556131104,-4.360983045738227,179.46592651183354,1285,958,16798,1,-1,1,128.5,-37.25,-727.0
3.1197906033714013,-4.3522996127075,179.4502263613772,1271,961,16792,0,1,-1,133.0,-34.25,-726.875
3.1872053138659733,-4.375546745889111,179.45574744672203,1308,958,16796,0,-2,1,131.75,-40.125,-729.25
3.22158233455885,-4.377939999540885,179.45571029601743,1290,960,16787,0,0,-1,131.375,-39.625,-727.125
3.2765755383186344,-4.382557180021692,179.4604201429471,1294,979,16766,0,1,1,127.875,-41.0,-728.625
3.19282992253835,-4.375882316151454,179.45065063505484,1276,939,16795,0,-1,1,132.125,-35.625,-725.75
3.1551765250780264,-4.369963871646242,179.4476983998005,1276,934,16793,-2,-1,2,131.25,-36.75,-727.5
3.1464282970395074,-4.3700284947509545,179.44584448379325,1285,936,16794,-1,0,1,132.5,-37.25,-725.875
3.1359406985043745,-4.360544806851892,179.43934234772928,1271,952,16786,2,0,1,129.75,-36.125,-729.75
3.1167447429308113,-4.349512016267995,179.4327235012465,1267,948,16799,-2,0,1,127.25,-35.625,-724.375
3.065112478696014,-4.349953370680333,179.42059151377455,1278,938,16797,-1,0,1,130.625,-33.625,-728.125
3.13326043588752,-4.361838630075097,179.42566589450905,1289,948,16785,-3,-3,1,131.125,-39.375,-729.75
3.133272737923728,-4.351440093055796,179.41664650521082,1264,976,16769,-2,-1,1,128.0,-35.5,-727.625
3.1876515659636024,-4.347877336567576,179.41096429152628,1276,1002,16779,-1,1,0,130.25,-37.5,-727.0
3.159056181106497,-4.346089193215518,179.39407189843095,1275,1002,16782,1,1,1,131.375,-33.625,-726.875
3.196021997569504,-4.364872818548455,179.38592360630187,1299,1003,16785,0,-2,0,134.0,-36.875,-727.125
3.162104095463744,-4.363253904356768,179.3749758523222,1276,970,16794,0,-2,1,129.75,-35.125,-728.875
3.2122635246764086,-4.352503149008407,179.378383657225,1266,963,16782,1,-1,1,130.125,-39.5,-727.75
3.161648501457903,-4.368630773917123,179.3707955878562,1294,924,16778,0,-3,-1,129.875,-36.375,-725.875
3.1662080103314296,-4.348707305447145,179.37078756205398,1260,942,16799,-1,1,1,127.5,-37.875,-727.625
3.176635265401297,-4.35080855363991,179.37071891200623,1281,940,16782,-1,0,0,130.375,-38.125,-723.25
3.182032200682139,-4.327876688684557,179.37035142873268,1248,948,16790,-1,0,1,132.25,-37.875,-725.875
3.20035406246637,-4.344002865629265,179.3710297619578,1294,947,16782,0,0,0,133.0,-38.875,-728.5
3.1213974515906613,-4.35156657446598,179.3605274282482,1281,922,16781,-3,-2,0,128.625,-34.75,-726.875
3.125235035359919,-4.360301658699427,179.35603298712175,1288,943,16775,-1,-1,0,129.75,-36.625,-727.875
3.1399067936956366,-4.332696883890163,179.3504700511502,1246,963,16785,-2,1,0,129.0,-36.625,-728.5
3.132130710814501,-4.312804590054204,179.35548109925756,1258,886,16803,-3,5,-1,127.75,-39.125,-726.25
3.1722331882352113,-4.301579996203896,179.34820841486354,1251,990,16767,3,0,0,128.75,-36.5,-725.625
3.217024549312601,-4.336161121253968,179.34310750448793,1309,1010,16754,-3,0,1,132.125,-37.5,-728.0
3.1903062980447014,-4.28884533624979,179.33446789803,1206,975,16774,2,-1,2,129.75,-35.375,-725.875
3.196447740153157,-4.300046475136183,179.33509752492552,1275,944,16775,1,0,1,127.75,-38.375,-729.375
3.229986113766374,-4.318250072385781,179.33579277369327,1289,969,16785,-2,0,0,134.875,-39.25,-728.625
3.2310704141564264,-4.302081580902548,179.328514281592,1247,985,16759,0,1,0,131.875,-37.0,-725.125
3.228176552979121,-4.340352908710435,179.32731959280844,1316,952,16778,-1,0,0,131.25,-38.625,-729.125
3.2161983035361996,-4.34578126251699,179.32718632223512,1289,945,16786,0,3,1,131.5,-38.125,-727.125
3.2321732864427837,-4.343272763702517,179.3249157536838,1273,976,16773,1,0,1,130.625,-38.0,-727.0
3.2193244023763463,-4.360032423527481,179.32428759859624,1293,952,16781,-5,-3,1,132.125,-38.25,-726.625
3.2211688572615342,-4.347937014556325,179.3261337906775,1265,925,16779,2,0,-1,128.625,-39.5,-727.875
3.193715893194407,-4.367516137465398,179.3230657349569,1302,943,16784,-1,-1,1,131.25,-37.125,-726.375
3.209146272646311,-4.344853989754034,179.31903385329025,1252,981,16774,-1,0,1,130.0,-37.375,-727.875
3.1395317800711116,-4.352490534957141,179.305634084355,1285,944,16782,0,0,0,132.125,-34.25,-730.5
3.130728644326883,-4.351061301976657,179.29892642583908,1275,959,16789,-3,-1,1,130.75,-35.5,-725.375
3.217355685476272,-4.358091961622978,179.30440692135025,1291,973,16785,0,1,0,132.125,-40.25,-727.0
3.191990105047394,-4.353721964181136,179.2995075029464,1272,955,16780,-2,-1,1,129.75,-36.75,-728.5
3.2436629863306408,-4.337195372053953,179.2940543508192,1257,1023,16780,-1,0,1,129.25,-37.5,-726.0
3.15794119562682,-4.343778888540988,179.29363511488575,1280,880,16801,-1,-2,1,132.875,-36.875,-725.75
3.183101331336973,-4.352603507618356,179.27800595653912,1289,1038,16780,1,1,1,132.125,-34.25,-729.5
3.1359681066083627,-4.340735470811377,179.28396848784087,1265,859,16783,-1,1,0,133.375,-38.75,-730.125
3.221915659360016,-4.3633747834398005,179.28130668332102,1304,1025,16770,-2,-1,1,131.25,-38.0,-725.25
3.128805929513405,-4.3582198307827245,179.27341251050714,1275,899,16776,-1,1,0,129.875,-35.125,-729.625
3.1937532132563957,-4.375768996998611,179.2654451095465,1302,1024,16770,-3,-1,0,131.375,-36.75,-727.75
3.108219376629616,-4.344022067181601,179.26050671504265,1241,874,16798,-1,-1,-1,132.5,-35.875,-728.25
3.164851678251711,-4.3450484559458316,179.24633059244715,1275,1032,16771,-1,-1,-1,131.0,-35.0,-725.375
3.1145054469511284,-4.338468210417114,179.25288776897685,1268,844,16784,1,0,0,129.5,-38.375,-727.375
3.1944484043645054,-4.3576349318181595,179.24347397987287,1300,1047,16768,-1,0,1,132.25,-36.0,-727.75
3.1389739606017457,-4.352703951187516,179.23985824944282,1270,912,16770,-2,-1,1,130.75,-36.0,-728.125
3.243430101156461,-4.3535222625258045,179.2506592336835,1282,973,16774,-1,1,1,131.5,-41.5,-728.0
3.190090354133734,-4.340898056759627,179.24263398407498,1262,941,16795,1,0,0,132.0,-36.0,-730.375
3.215980542718637,-4.339568458100183,179.242484672809,1273,972,16768,-3,0,1,129.625,-38.375,-730.25
3.1675781760266286,-4.339160574812076,179.23769858448077,1272,920,16783,1,-1,0,130.25,-36.375,-727.75
3.161835360113678,-4.346578596681494,179.22627957295052,1288,992,16809,0,1,1,132.625,-34.5,-726.125
3.1712323506442717,-4.348719132910723,179.2223483867725,1278,965,16782,-1,-1,1,133.125,-36.5,-726.625
3.1746394011165373,-4.352036672467916,179.2231913291204,1284,919,16798,2,0,-1,133.0,-38.25,-727.375
3.2647107487315044,-4.364166088085952,179.2218770210064,1289,1035,16793,-3,-4,1,133.5,-38.875,-727.875
3.2482919881707697,-4.345900014099037,179.22780638434267,1256,918,16784,0,-1,1,131.0,-39.625,-726.125
3.3277045382423185,-4.3287790680137235,179.23007447410913,1256,1032,16776,0,1,2,129.5,-40.0,-727.25
3.2139537300340675,-4.381897625136687,179.23898196862422,1340,841,16787,-4,-2,2,130.375,-39.25,-727.0
3.245807613284753,-4.390181499604617,179.2234148071023,1295,1049,16742,2,0,0,130.25,-35.25,-729.25
3.183780407631575,-4.35366034348154,179.21173461982536,1236,958,16770,-5,-1,0,133.625,-35.0,-728.25
3.1908343859510695,-4.365029346990689,179.2166811231764,1295,903,16804,3,-1,-1,130.875,-39.5,-728.375
3.2739280912343296,-4.3575112807693035,179.21345449669528,1272,1040,16767,-1,0,1,129.75,-38.375,-727.125
3.161460909019803,-4.366590173977588,179.21965581018546,1291,829,16793,-1,-1,1,134.625,-38.125,-727.625
3.286844007033183,-4.37110763615891,179.21450451987252,1290,1063,16776,2,0,-1,133.75,-39.0,-729.625
3.198890181610742,-4.354759702121138,179.2169508144394,1263,887,16799,-8,0,1,128.75,-37.875,-724.125
3.1267456180484543,-4.359095442638798,179.20958857798087,1284,905,16781,2,0,0,129.75,-35.0,-728.125
3.2410506714818204,-4.3487676289391235,179.18982837442763,1265,1140,16762,-3,0,1,131.0,-34.25,-727.875
3.089158372545429,-4.324183342413299,179.19375451272384,1246,793,16795,0,1,1,131.375,-36.25,-725.375
3.1789370083272765,-4.386956939175805,179.18967862288963,1356,1008,16774,3,0,0,129.5,-37.125,-726.125
3.2820548617366323,-4.343660432293002,179.1922041605202,1233,1030,16779,-3,1,1,132.5,-39.875,-727.875
3.183645315817776,-4.364243542837807,179.19183499850138,1303,881,16779,-2,0,1,129.375,-36.875,-727.0
3.217461867100584,-4.363464201650809,179.18059230854703,1282,1030,16798,2,0,1,132.0,-35.25,-725.75
3.2712152476419853,-4.3643821055594,179.18214355257336,1289,999,16794,-2,2,1,132.875,-39.125,-727.0
3.1491491254628654,-4.341997923633649,179.17554250841795,1250,889,16813,-2,-1,1,130.25,-34.875,-728.25
3.17361740179302,-4.37220766784033,179.16929687817108,1318,967,16768,3,1,-1,130.625,-36.625,-729.625
3.2826683010552133,-4.342038015920945,179.17315136349455,1247,1024,16786,-1,1,1,129.375,-40.125,-726.75
3.1323969083925096,-4.345114766058378,179.16663232456753,1279,862,16806,-1,0,1,132.875,-34.375,-726.0
3.2028420569538514,-4.337410862413811,179.16727026459398,1266,994,16769,-3,0,1,133.0,-38.0,-724.5
3.22334309201597,-4.3351036364924465,179.15960327424665,1271,1000,16778,-1,0,0,131.0,-36.625,-729.25
3.1447417948182697,-4.317640633397179,179.15837883750729,1248,888,16793,-3,-1,1,131.875,-36.125,-725.125
3.1532726381202987,-4.3422599731152145,179.16073511264634,1305,925,16791,1,1,1,128.25,-37.5,-726.375
3.2461232685824277,-4.354593770984292,179.15460645322835,1293,1033,16774,3,0,-1,133.375,-37.75,-727.5
3.2763894476582007,-4.35193078502361,179.15171981090137,1275,1012,16791,-6,-1,1,133.125,-38.0,-725.125
3.197796230132168,-4.3424912352702645,179.15584435404014,1266,860,16786,3,0,0,129.125,-38.25,-725.625
3.2723408119839856,-4.367276277730413,179.14570817617005,1309,1070,16771,-1,0,1,133.5,-36.5,-728.375
3.18137026611694,-4.347463975108603,179.15301049462073,1255,845,16794,-2,-1,1,135.75,-38.375,-724.875
3.2147302600869185,-4.349875103483589,179.1509675992309,1281,971,16780,3,0,0,134.0,-37.5,-725.125
3.276430161402641,-4.344897491800577,179.14800509394325,1274,1036,16785,-2,1,2,133.375,-37.75,-727.125
3.205727347665728,-4.338833593514362,179.15617231903815,1269,860,16790,-1,0,1,133.5,-39.125,-727.25
3.2744782785426105,-4.352069733798212,179.14422441865375,1296,1067,16795,2,1,0,129.625,-36.375,-729.0
3.238204652951143,-4.32879030459095,179.1429706174601,1248,937,16794,-3,0,0,129.125,-38.0,-728.5
3.2428960796838715,-4.332934878941764,179.15262848778983,1275,901,16793,2,-2,0,133.375,-40.5,-725.25
3.2652652874254398,-4.343152121697762,179.13836314501395,1284,1050,16777,-3,-1,0,131.875,-35.5,-726.75
3.127035257390305,-4.33517838047695,179.1336013129556,1263,859,16782,-2,0,1,133.75,-34.625,-724.5
3.1802593207534047,-4.340807979059604,179.13542876321338,1284,955,16780,2,1,0,127.0,-38.25,-726.75
3.205665115264582,-4.325851623057829,179.13812194689868,1257,952,16774,-1,1,1,132.625,-38.125,-724.5
3.235388400927934,-4.3182503769760485,179.13910776773997,1263,970,16780,1,1,1,133.0,-38.125,-725.375
3.2907223328818467,-4.338373045604852,179.14511824131654,1300,979,16770,-1,2,1,129.5,-40.5,-729.375
3.2338206804259277,-4.384373411218788,179.13201720078,1334,963,16757,0,0,-2,129.25,-35.75,-731.375
3.183006127594879,-4.366488463241842,179.1309633454171,1262,918,16788,-4,-1,1,132.875,-36.75,-726.0
3.2079523190428936,-4.345977040249038,179.1233162461286,1253,991,16776,-2,-1,-1,133.5,-36.75,-730.125
3.2253018247643195,-4.330974504041777,179.1208048110647,1255,974,16782,-3,-1,0,133.0,-37.625,-726.75
3.185935540120346,-4.32357220837776,179.11697608140042,1261,936,16798,0,-1,1,131.75,-36.125,-727.0
3.2564094711351657,-4.317811830831433,179.11726370802913,1263,1006,16778,1,0,1,128.5,-38.5,-725.875
3.249250110378926,-4.318911308452455,179.11967122273578,1270,947,16776,-3,0,1,132.75,-38.75,-729.625
3.239422274900033,-4.342955274317701,179.11529075294646,1298,975,16764,-2,-1,1,133.25,-37.0,-729.625
3.248266011824492,-4.33102185491333,179.1079857018257,1259,1006,16775,-2,0,1,133.875,-36.375,-727.625
3.2547139005845334,-4.3407346265891515,179.0998136959513,1283,987,16794,-1,-2,-2,131.0,-37.375,-729.25
3.2562762884258145,-4.353276225220646,179.09019171811812,1290,999,16778,-1,-1,-1,131.0,-36.5,-726.75
3.1868671730908944,-4.352394920278538,179.07868423244153,1270,963,16792,0,-3,2,131.75,-33.875,-729.5
3.2007282306604505,-4.335764515777909,179.07678486092982,1256,965,16777,0,0,1,131.25,-36.875,-726.75
3.2005583632180437,-4.328316442719299,179.07919800979988,1262,925,16778,0,-1,0,131.75,-38.25,-728.125
3.1515268745880682,-4.326232371434422,179.08031560961834,1266,895,16774,-2,-1,1,133.375,-36.625,-725.5
3.1329261496725374,-4.319521262086239,179.0800963214647,1259,907,16794,0,-2,0,132.5,-36.625,-726.875
3.153953301536054,-4.320682580532526,179.08093651614644,1273,936,16779,-1,1,0,132.125,-37.25,-725.625
3.1409518486269863,-4.297224174060435,179.07460408194143,1242,956,16797,-1,2,1,131.75,-34.875,-725.75
3.1832046491020116,-4.325225123592832,179.07403802343802,1303,974,16781,-1,1,1,133.375,-37.125,-727.625
3.1892671111992876,-4.344232599482984,179.06937815979097,1298,964,16799,0,0,0,134.75,-36.375,-727.625
3.1607232764956277,-4.380657212593699,179.06765086972092,1330,925,16788,0,2,1,135.75,-36.0,-725.375
3.1662110980798253,-4.358077493436395,179.05899587634545,1256,963,16800,-1,-1,-2,134.125,-35.75,-725.625
3.207033066938345,-4.383194782126853,179.06605637443363,1313,938,16777,-1,-1,1,128.0,-39.375,-728.25
3.2531613420983416,-4.374693168943047,179.0629641415061,1274,1002,16768,-2,-1,0,132.375,-37.75,-726.125
3.183904227653333,-4.413289189487481,179.05302391763368,1332,954,16783,-5,-2,1,130.625,-34.625,-730.75
3.248778567897812,-4.38801161419604,179.0605353530213,1266,961,16791,3,1,1,131.75,-39.75,-726.375
3.2483471249652243,-4.408732373578436,179.0542977721589,1317,986,16777,-1,0,0,129.125,-36.625,-725.125
3.2310436508914786,-4.382584794468763,179.03915089715647,1267,1014,16768,2,5,0,129.5,-34.125,-727.75
3.1915657867038396,-4.361155191680522,179.03371985866139,1264,943,16782,-3,3,0,132.25,-35.75,-724.375
3.1289009982670057,-4.370664837514679,179.02532554017273,1294,930,16775,-2,1,1,131.875,-34.0,-728.625
3.1377476194303044,-4.342149973879348,179.01562810216606,1244,974,16770,1,0,0,132.0,-34.375,-727.375
3.1460393602965047,-4.313650171917825,179.01605908477688,1238,926,16789,0,0,0,131.75,-36.875,-727.5
3.1760759172739856,-4.3060826029239845,179.0158903763231,1255,943,16770,0,-1,-1,129.875,-37.625,-727.25
3.1760230267543097,-4.296101695461553,179.01400081345975,1250,949,16761,-1,0,1,131.125,-36.25,-725.375
3.162038287622297,-4.292478036392913,179.0037259613421,1253,972,16764,-1,-1,0,129.625,-34.5,-727.75
3.1633807699550656,-4.298980067644531,178.99875844889795,1270,959,16783,-3,0,0,128.625,-35.875,-727.625
3.2011867419228186,-4.28621813867301,178.99812992916355,1247,969,16790,-1,0,0,132.25,-37.375,-726.25
3.1325763879742015,-4.287515162258534,178.97981902330528,1256,960,16781,-1,-1,-1,133.875,-32.25,-727.75
3.172067471230174,-4.292483302267723,178.98090663671178,1264,960,16795,-1,-2,1,134.375,-37.0,-726.125
3.2363071625737825,-4.277385921818705,178.98772493869694,1242,974,16789,-1,0,2,132.75,-38.75,-722.875
3.255331507314611,-4.275499132554242,178.98988840348804,1258,965,16800,0,1,1,129.875,-38.375,-728.375
3.2451156302753805,-4.276344773577203,178.9857053752319,1257,970,16805,-2,-1,0,133.625,-37.0,-728.875
3.2419743543620196,-4.29220063770323,178.98521543477813,1275,960,16794,-1,-2,1,131.0,-37.25,-723.5
3.2922655045024474,-4.287438827574611,178.9924139982973,1256,969,16788,0,0,1,130.25,-40.125,-726.875
3.2671319363909292,-4.2904640061501205,178.9854308089691,1263,981,16779,-2,0,0,128.875,-36.5,-727.5
3.237520326690538,-4.293982169375468,178.9803151678368,1265,947,16780,1,0,-1,130.875,-36.75,-727.0
3.213292236468855,-4.280868165488151,178.97702181804289,1241,953,16777,-2,-1,1,131.5,-36.25,-726.375
3.2098218561622742,-4.276849516047776,178.97136198310582,1252,968,16781,0,0,0,133.375,-36.0,-726.5
3.239842151973063,-4.278154306342813,178.97458048495452,1257,962,16782,-1,-1,1,132.125,-38.25,-724.875
3.2299958711781427,-4.280143739145373,178.9733542039396,1258,948,16784,-1,-1,0,129.625,-37.25,-724.375
3.2137662229315973,-4.275552667116522,178.9655138420673,1250,971,16774,1,0,0,129.375,-35.375,-724.625
3.1890156355489885,-4.278275849636427,178.9597248764916,1261,957,16782,0,1,1,131.375,-35.25,-727.125
3.211755868545376,-4.276687434300525,178.96199412043708,1257,948,16775,-2,1,0,133.375,-38.125,-728.875
3.2105022516615978,-4.281808733326522,178.95524256525894,1265,976,16807,1,0,0,130.25,-35.625,-724.625
3.2457011482526608,-4.298083336880132,178.95875662337951,1282,967,16797,-1,0,1,133.25,-38.5,-728.0
3.2531390496227206,-4.314297331429611,178.95701721438923,1282,961,16789,-1,-2,-1,132.0,-38.0,-728.375
3.193914533190863,-4.3094616118897635,178.94336571002032,1260,976,16779,0,1,1,132.375,-33.375,-730.0
3.1848703020849736,-4.29497789830182,178.9395212394356,1248,956,16781,0,1,1,131.125,-35.625,-726.375
3.1832512685228505,-4.303722117072845,178.93523732933483,1271,956,16772,-2,-1,0,134.375,-35.75,-723.125
3.177695175464552,-4.310748766468769,178.92655857420505,1271,972,16777,0,-1,0,133.625,-34.75,-726.5
3.1723906712918204,-4.307776432779029,178.92358044287926,1264,952,16779,-1,1,1,128.375,-35.75,-727.375
3.2227894188137807,-4.289765240437236,178.93028020459238,1243,953,16767,-1,1,1,133.75,-38.625,-723.5
3.230930639952071,-4.296764370314631,178.92907768163465,1271,976,16900,-3,-4,1,133.25,-36.875,-723.625
3.158328846070023,-4.290863271113227,178.91691892311462,1256,934,16805,1,1,-1,130.375,-33.625,-726.5
3.264692707862917,-4.255111094375567,178.91951027622045,1199,1023,16776,-3,-7,1,130.0,-39.0,-727.625
3.2129989462179163,-4.32502236534472,178.9156741840949,1342,920,16772,-1,-1,-1,132.625,-36.375,-725.125
3.226431654507584,-4.251902924800986,178.9242918325353,1165,922,16792,-4,-4,1,130.5,-39.25,-724.75
3.173193462700464,-4.332302313585484,178.92420807763784,1358,900,16784,2,0,1,133.375,-36.0,-725.75
3.166655939266937,-4.289326820578347,178.9184667280241,1220,957,16780,-1,3,0,129.0,-35.25,-726.375
3.137050611468559,-4.371394687936106,178.92057834066063,1376,895,16787,2,2,1,133.25,-36.25,-728.5
3.2039288128181167,-4.343152780209263,178.92302513890263,1243,981,16782,-2,-2,1,133.5,-37.875,-729.25
3.17339508532252,-4.378743642972345,178.92224540424203,1323,922,16793,0,-1,1,132.75,-36.125,-728.125
3.2033887814431505,-4.371064330335641,178.92429237887094,1277,959,16785,-2,0,1,130.375,-37.625,-729.25
3.217878648670161,-4.387505276444969,178.93159818973268,1313,918,16801,-1,2,0,130.125,-39.125,-726.625
3.281171016750928,-4.375075053528581,178.93159932544066,1273,994,16802,2,-1,-1,130.5,-38.75,-725.875
3.2200719260837194,-4.384811803666787,178.92976592841413,1295,924,16769,-3,-1,1,131.375,-36.375,-727.125
3.1973293276485033,-4.3988134659568106,178.92246461299698,1304,958,16773,1,-1,0,131.875,-35.375,-730.125
3.1738239383342886,-4.3729821644202636,178.91995451731233,1258,937,16769,-1,1,1,130.5,-35.75,-727.875
3.1727420516459723,-4.412990176065617,178.92071546243434,1333,934,16801,-1,-4,1,131.625,-36.625,-726.375
3.159853819616718,-4.394384798273148,178.90829894608208,1271,974,16764,0,1,-1,131.625,-34.0,-729.25
3.128888236520276,-4.410756693626006,178.90681707271744,1307,908,16803,-3,-4,0,133.5,-35.75,-727.25
3.2069945474591814,-4.424736274825267,178.9105228411364,1321,980,16769,1,3,1,134.25,-37.875,-726.5
3.125424260936212,-4.4267994985187045,178.9071225489549,1296,891,16787,-3,-3,1,131.0,-34.5,-724.125
3.177449378662416,-4.452530503634131,178.89820939946975,1344,1022,16788,0,4,1,130.375,-34.5,-726.625
3.122452425433906,-4.39827314247233,178.89820916852824,1227,892,16766,-5,-3,1,129.375,-35.625,-727.875
3.2362408981368875,-4.450132765158918,178.90335141240777,1373,996,16792,2,4,0,130.125,-39.25,-727.625
3.1620708711033387,-4.372545111378934,178.88986937884252,1197,960,16778,-4,-1,1,132.0,-32.75,-727.0
3.1660175951000706,-4.4468720609871415,178.89008392144171,1385,935,16795,2,-1,1,129.875,-36.375,-729.0
3.175237365321063,-4.3865629733733575,178.87868094392286,1223,1005,16774,-1,0,1,130.5,-33.75,-727.875
3.1377935657682032,-4.41315280250954,178.88437722160134,1323,875,16805,-1,-2,1,130.25,-37.125,-728.625
3.174655904498034,-4.412890477875868,178.872029064689,1297,998,16765,4,1,-2,129.375,-34.625,-729.375
3.209008158612268,-4.411824925073179,178.88097803244037,1313,920,16844,2,6,0,130.625,-39.125,-726.125
3.2663987638528638,-4.376886409937194,178.88560533503428,1253,972,16795,0,1,0,128.25,-39.25,-726.875
3.294614463233748,-4.392780880152525,178.88353336502013,1291,999,16741,-1,-7,1,134.5,-37.625,-727.625
3.2839866953885166,-4.352588786441681,178.8848401452693,1235,954,16791,2,-1,1,132.25,-37.75,-724.625
3.3110478582473197,-4.401406586591124,178.88265000145515,1346,1007,16762,0,1,1,134.75,-37.5,-725.5
3.2375679736942584,-4.357401731338604,178.87565453667608,1230,940,16781,-2,-1,0,128.625,-35.375,-724.875
3.264489365754897,-4.373138955169422,178.8750834700952,1302,987,16780,-1,0,1,128.625,-37.625,-729.25
3.2658430222658623,-4.379646923268296,178.87726007297178,1292,950,16802,-2,-2,0,129.25,-38.375,-726.0
3.2530634620487975,-4.380961049406101,178.88011490247925,1290,931,16793,0,0,0,130.375,-38.375,-729.375
3.199316867699016,-4.377822259993708,178.86066476478328,1278,1004,16789,-1,-1,0,132.625,-32.125,-727.0
3.202420296134767,-4.369586804826249,178.85857565386212,1272,953,16790,-1,-2,0,127.125,-36.5,-725.5
3.263656117827293,-4.370991377996288,178.86377458595766,1289,972,16808,0,0,0,131.5,-39.125,-725.125
3.2371073942906605,-4.3605640991839,178.86013070948084,1271,953,16797,-1,0,0,129.875,-36.5,-728.625
3.2497153938764622,-4.370866843459905,178.86093708583772,1296,957,16784,0,0,0,130.375,-37.875,-728.375
3.217136167941222,-4.362779565065542,178.85264838365444,1272,976,16783,-2,0,1,129.75,-34.75,-728.125
3.212856280215132,-4.355965185958477,178.85595949782905,1273,924,16783,4,0,1,129.125,-37.5,-729.125
3.2578249093802825,-4.343668640230011,178.84012046516784,1261,1077,16769,-2,0,1,132.5,-33.875,-728.5
3.1326353302851673,-4.316904429373795,178.83783639908035,1237,855,16798,0,-1,1,131.5,-34.375,-725.25
3.232211171373478,-4.338751861706964,178.83283520893875,1300,1041,16768,-1,1,0,131.375,-36.625,-728.0
3.197255184493367,-4.308805002291447,178.833466298917,1237,913,16821,0,0,0,130.375,-36.75,-726.875
3.252741857483039,-4.344191242876469,178.8342303462079,1315,988,16781,-1,0,0,131.5,-37.875,-725.25
3.246043512474943,-4.351767723368522,178.8288587223782,1287,984,16793,0,0,1,130.375,-35.875,-729.375
3.2050539709396477,-4.36506735188285,178.81983656344693,1291,974,16779,-6,-2,1,133.25,-34.375,-727.625
3.115970378291042,-4.3356513794645615,178.81835742616676,1243,859,16803,3,0,0,131.375,-34.875,-728.625
3.252825022357236,-4.37843119110096,178.81315971585477,1334,1071,16764,0,1,0,131.5,-36.75,-724.375
3.1439174986685683,-4.343913082587688,178.82369022685236,1236,807,16816,-3,-3,1,130.875,-37.75,-727.25
3.2210768820093096,-4.402350265158189,178.81049704433607,1356,1051,16783,4,0,-1,131.0,-34.5,-725.5
3.2122677204700802,-4.357236694347999,178.81923214761585,1231,914,16784,-6,-1,2,130.5,-38.375,-726.625
3.2465907965826646,-4.369449660094861,178.8288029316814,1295,929,16823,3,-3,1,130.375,-39.375,-725.625
3.289302883453325,-4.384109929289863,178.81385346953,1304,1083,16773,-3,1,1,129.875,-34.375,-727.75
3.1322034883805587,-4.3586720816864375,178.82471354255588,1250,769,16823,-2,-3,1,129.625,-37.375,-726.5
3.3141812731483276,-4.406603074538147,178.82022571380813,1351,1105,16797,3,1,-1,131.375,-38.375,-726.875
3.2360942224188487,-4.370705331985161,178.81275161921744,1241,935,16784,-5,-2,-1,129.25,-35.5,-725.75
3.1946156135173536,-4.374926986839312,178.81600841230443,1291,898,16797,2,0,1,130.25,-36.875,-727.75
3.275276745371503,-4.3819793934321,178.81547426047754,1296,1026,16781,-1,0,1,134.875,-37.625,-727.625
3.230372634796181,-4.3634318551423075,178.82026878327866,1262,905,16802,-3,-1,1,128.75,-37.75,-725.625
3.2896132159275973,-4.380170346199562,178.81977317206082,1308,1012,16787,2,1,1,130.5,-37.625,-725.75
3.2216904486754814,-4.362311636610513,178.81270394267045,1261,948,16782,-3,0,1,131.625,-34.625,-724.75
3.321025334935706,-4.375296101848652,178.82791689640285,1296,957,16775,0,-2,0,127.875,-42.375,-723.625
3.2572656054657947,-4.386368831226246,178.81967904318472,1297,962,16785,0,-1,1,133.625,-34.75,-724.125
3.228636882175819,-4.368546711673367,178.81602117457066,1263,956,16795,-1,-1,1,131.75,-35.75,-726.125
3.2151317638983516,-4.374326443047161,178.81055231687958,1288,971,16772,-1,-1,1,128.5,-35.375,-728.375
3.237613329879513,-4.381637361275995,178.81186662836038,1296,960,16782,-2,0,0,130.625,-37.75,-727.875
3.270951462994508,-4.384182766926266,178.82118937858024,1292,934,16781,-1,0,0,132.0,-40.125,-728.875
3.285330576587314,-4.390349714824472,178.81492778292568,1294,1004,16774,0,-1,0,134.25,-36.375,-726.25
3.2658710059277785,-4.378626628689322,178.8123456873308,1272,959,16781,-1,-1,0,131.625,-37.0,-728.875
3.308781123423357,-4.387771667595867,178.8126380886578,1299,990,16767,-1,0,-1,132.5,-38.625,-724.875
3.3044657284132244,-4.388267525566924,178.81722179414086,1291,953,16788,-2,0,1,130.125,-38.75,-725.25
3.287194051038313,-4.380049960978082,178.8123514805238,1276,987,16786,-1,-1,1,129.375,-36.25,-725.375
3.3120536381356818,-4.360252935566014,178.81805905119364,1263,958,16780,0,1,0,130.375,-39.625,-726.75
3.310121454094697,-4.347581380236996,178.8158941558719,1261,974,16762,-2,-1,-1,129.875,-38.0,-725.625
3.3083859667686384,-4.362592884932988,178.8200847489924,1297,955,16764,-1,0,1,129.25,-38.875,-727.625
3.32443961992323,-4.335425338910322,178.82385668139617,1244,976,16786,-2,-1,1,130.125,-39.0,-725.75
3.324152593372234,-4.34705448891646,178.82965866119872,1291,951,16791,1,0,1,130.875,-39.375,-727.125
3.2682041684599623,-4.367621797374667,178.82490174124206,1302,956,16781,-2,-1,1,131.0,-35.875,-725.125
3.199949621186691,-4.340379090579792,178.8136199094135,1243,953,16767,-2,0,0,132.25,-33.75,-725.875
3.1831470363468606,-4.374257720124368,178.81146441628607,1323,946,16782,-3,1,1,129.5,-35.625,-726.125
3.15678466132217,-4.354483960252812,178.80509636269514,1255,951,16777,-2,-1,1,131.25,-34.25,-726.75
3.2063196908232947,-4.356559589706573,178.808992261383,1288,955,16791,-1,2,0,130.125,-38.125,-729.25
3.1924591536948324,-4.360268919348892,178.80653143050375,1288,941,16795,0,1,0,129.625,-36.125,-729.75
3.221431421214844,-4.354528385012877,178.82005154173407,1282,894,16777,1,4,0,132.5,-40.0,-724.0
3.202452913114972,-4.367761571304708,178.82731746983075,1299,886,16794,2,0,0,129.125,-38.25,-724.125
3.1718300479555053,-4.4278863843681275,178.8339290812042,1352,888,16763,-6,-6,1,132.5,-37.625,-725.375
3.1848319937176233,-4.367042656737954,178.83754640901748,1214,935,16795,-3,-3,1,131.875,-37.25,-726.25
3.2364073819032404,-4.402714462731983,178.84611303240905,1331,933,16783,-2,-1,-1,131.0,-39.875,-724.875
3.232599574189387,-4.371258232931929,178.8441113940717,1254,969,16797,-3,1,1,130.75,-36.625,-729.75
3.2123256438505234,-4.417112220060905,178.8480405249007,1345,918,16782,-2,-1,1,128.5,-37.5,-725.25
3.254639916590329,-4.4061916629255355,178.8544807232765,1279,955,16768,0,-2,1,132.0,-38.875,-725.75
3.190654758839775,-4.418966541123072,178.84878704433683,1312,926,16771,-2,1,0,129.5,-35.125,-727.5
3.18808980292409,-4.408328507287223,178.8454807764881,1287,953,16795,-1,1,0,128.75,-36.0,-728.125
3.2360389283282034,-4.4133903305253375,178.84738826707368,1301,972,16779,-2,-1,0,127.5,-38.25,-728.375
3.204833113130466,-4.389007347973317,178.84446554774752,1268,946,16794,-2,2,1,132.375,-35.625,-725.625
3.1870230736563925,-4.417206892796227,178.83948645761424,1325,948,16775,0,-1,0,130.25,-35.625,-730.875
3.2336545403249533,-4.401606424906483,178.84654815158615,1270,947,16785,1,-4,1,131.125,-38.75,-725.125
3.1626362344200687,-4.410574831192819,178.84192034018082,1307,902,16786,-3,1,-1,129.875,-35.5,-730.875
3.114576669158771,-4.3775754159329106,178.8334540191757,1249,914,16769,2,0,-1,131.75,-33.875,-729.25
3.1843158969899115,-4.435300199564279,178.83198217445204,1361,981,16771,-2,-2,-1,132.875,-37.125,-728.875
3.151716045828055,-4.380314672202276,178.8309951877986,1231,916,16794,0,1,1,134.25,-35.375,-727.5
3.1569969331544225,-4.399314648193589,178.82379712393387,1315,961,16785,-1,1,-1,129.875,-35.0,-728.125
3.12759457797301,-4.38126449791569,178.81602287458563,1264,947,16771,-2,-1,1,132.125,-33.5,-725.5
3.1426221000196333,-4.394830106503735,178.82105983481298,1301,912,16764,-1,-2,1,128.875,-37.125,-728.125
3.1918856761564003,-4.39867138532837,178.82373036487414,1300,955,16788,0,1,0,129.875,-37.5,-725.875
3.171428582181534,-4.387987965924358,178.8245945381457,1275,920,16770,-1,-1,1,128.5,-36.25,-727.125
3.175482057848492,-4.371572488815894,178.81952706388375,1261,967,16760,-1,-2,1,131.125,-34.875,-724.5
3.231467788323329,-4.417306026191652,178.82914321240438,1352,938,16784,-2,2,0,132.0,-40.0,-731.625
3.2091969032670713,-4.399215388849671,178.82724116039495,1270,945,16794,-1,-2,1,131.125,-36.0,-726.125
3.2133398696229243,-4.409170150349685,178.8358268870135,1305,909,16783,-1,-1,1,131.25,-38.625,-725.875
3.1748314802795243,-4.409624610480673,178.822541595079,1293,982,16772,-1,0,1,132.75,-32.75,-725.375
3.1815858005284823,-4.375254241374466,178.82543581255024,1255,916,16798,0,2,-1,130.375,-37.75,-730.25
3.2155102543115115,-4.392667774989455,178.82942687380736,1307,951,16769,0,-1,1,131.375,-37.75,-726.75
3.192524768046466,-4.385958588537868,178.82493010246094,1278,952,16770,-1,-1,1,132.0,-35.125,-725.625
3.2192443905711423,-4.402198372613829,178.8252788440158,1309,951,16773,0,-1,-1,131.125,-37.5,-725.125
3.1971069449757983,-4.396670650129297,178.8226895910272,1283,939,16770,-3,-1,0,134.0,-36.125,-728.375
3.1580294036848087,-4.378436555281696,178.8203832040994,1262,912,16772,-1,-2,0,131.125,-35.5,-726.25
3.1435270195391607,-4.415782120751771,178.80760742765042,1335,985,16778,0,0,1,133.75,-32.625,-727.75
3.156608544964638,-4.356548006033525,178.81377599925597,1213,914,16771,-4,-2,1,131.25,-37.375,-725.25
3.1527735823885794,-4.417068291107865,178.80577350391135,1363,971,16779,1,1,1,128.25,-33.875,-727.25
3.1573773659868154,-4.335784998970977,178.80680999314288,1186,935,16785,-3,-1,1,130.375,-36.25,-728.0
3.162982222225272,-4.3961202400915145,178.81638893590355,1358,887,16799,2,0,1,131.875,-38.125,-726.875
3.2000934367462572,-4.372627714952844,178.80345541646417,1260,1033,16767,-2,1,0,129.125,-34.0,-728.25
3.037345425845525,-4.397640451291419,178.7986318614308,1312,816,16790,-1,-2,1,132.5,-32.375,-727.625
3.213859862763753,-4.41270932444909,178.79804035718104,1312,1044,16749,0,0,-2,130.625,-38.375,-726.875
3.157969454336914,-4.356509834226975,178.80750530856645,1215,852,16787,-4,-3,1,131.125,-37.875,-726.625
3.220584745325425,-4.428749979459134,178.8072515334886,1381,982,16780,4,1,0,135.125,-37.125,-728.625
3.197729262997589,-4.3823628628465485,178.8008914592733,1233,967,16748,-5,-1,1,133.875,-34.75,-725.375
3.1670568908032513,-4.4211206461279735,178.80957661497504,1335,867,16785,2,-3,1,131.125,-37.5,-721.375
3.253004369060144,-4.415883507138968,178.7952885965285,1291,1087,16743,-3,1,0,129.875,-34.5,-725.75
3.1768608091829953,-4.401236179978455,178.80991654462986,1274,807,16779,-2,-2,0,130.875,-39.375,-724.75
3.2706075178937364,-4.455701695236557,178.80698752045893,1364,1040,16754,1,-1,1,129.875,-37.0,-724.875
3.1745211527113675,-4.391470021492605,178.79910105040375,1221,915,16769,-5,1,0,130.875,-34.125,-727.25
3.1084852464286734,-4.4144501247026815,178.7996365081909,1313,871,16784,0,-4,1,131.75,-35.0,-726.75
3.2338349252634893,-4.419680379490006,178.7926831239385,1309,1061,16774,-1,2,-1,132.375,-36.625,-730.125
3.1072437785014126,-4.369778476466078,178.7981042565283,1228,812,16810,-3,-2,1,128.375,-35.875,-726.625
3.202748211649402,-4.430468002368147,178.79702908864837,1368,1010,16789,4,0,1,129.75,-36.625,-728.0
3.1672895226356923,-4.406631103646155,178.79057791478974,1268,954,16778,-5,0,1,128.75,-34.5,-730.0
3.104963166891968,-4.388241415816667,178.7932529087499,1270,857,16787,-1,0,0,129.25,-35.875,-728.375
3.2331286075631076,-4.41242104181535,178.79255394267847,1326,1037,16785,0,1,0,132.25,-37.625,-728.125
3.1572034642531217,-4.394991787649868,178.79241293964915,1273,871,16815,-1,-1,-1,132.5,-36.0,-726.25
3.233078681818598,-4.405165330122864,178.79584988614468,1308,986,16778,1,1,1,128.625,-38.125,-729.375
3.21618148738959,-4.4256442495757655,178.79542446222234,1322,946,16780,-3,0,1,129.125,-36.375,-725.5
3.2186403041177654,-4.469346663308676,178.80280493188505,1353,914,16787,-1,-4,1,127.875,-38.5,-726.875
3.2135261528228276,-4.431880606409055,178.7988561449679,1258,968,16754,-2,-1,1,129.5,-35.75,-729.0
3.1844905880228813,-4.44492648113073,178.80054233872767,1318,896,16777,1,-1,-1,132.75,-37.0,-726.75
3.2424874662087118,-4.416958681618838,178.79837717780214,1270,1001,16769,-1,1,0,128.625,-37.0,-725.375
3.176626144748714,-4.425858303572628,178.79397382799354,1316,910,16798,2,3,0,131.375,-34.75,-724.625
3.183255994070749,-4.385655384039069,178.78727713830983,1248,973,16788,0,1,0,131.75,-34.75,-724.5
3.179728229205368,-4.37574121440346,178.77536967884754,1280,1000,16763,0,4,1,131.625,-33.125,-726.75
3.1880072069917174,-4.353880094438316,178.7747341291421,1257,949,16794,2,0,1,133.125,-35.875,-726.25
3.205138082887114,-4.37695855111319,178.76647230968413,1310,1001,16783,1,0,1,129.125,-34.375,-725.125
3.227691574350997,-4.385419637102506,178.77005576060756,1295,953,16765,-3,-1,1,129.875,-37.625,-725.875
3.2347862226083253,-4.371992647580615,178.76896015584833,1270,945,16766,-2,0,-2,128.625,-37.625,-727.125
3.222632509155546,-4.351808257165948,178.76268704443257,1251,977,16763,-1,-2,1,129.875,-35.125,-728.125
3.2693357758220487,-4.334650707664836,178.76823293258389,1250,960,16774,-1,-3,0,129.875,-39.0,-724.625
3.254233225362516,-4.3705905877046565,178.7747871534599,1321,913,16779,-3,-1,0,128.625,-39.0,-728.125
3.220545028196332,-4.342661688325864,178.77673121546883,1245,920,16766,-1,0,1,131.75,-36.75,-725.625
3.252409993998046,-4.348166326735192,178.77873303745903,1282,973,16780,-1,-1,1,132.25,-37.625,-727.375
3.268384632905574,-4.3447124508863295,178.78424292478957,1275,953,16799,-3,0,1,130.75,-38.625,-726.875
3.305371410558636,-4.334189836877205,178.78930497398594,1265,975,16779,0,1,1,129.625,-39.125,-728.125
3.2378724697705774,-4.320521088237514,178.7892670408153,1250,914,16779,-2,-2,1,132.5,-36.625,-729.0
3.2811987310632,-4.30690380988619,178.79511146234617,1249,957,16794,2,-2,0,129.375,-39.125,-723.125
3.3622309942837885,-4.325482303914416,178.80104554050197,1291,1006,16765,-4,0,-1,132.125,-40.875,-725.0
3.2878613706135082,-4.28329821253448,178.8112727952938,1212,859,16781,1,-1,0,130.625,-39.875,-726.875
3.299969704134673,-4.347194395452481,178.7989855404861,1339,1033,16759,-2,-2,-1,130.375,-35.625,-727.25
3.263716672077575,-4.288764426792502,178.8080636583958,1195,894,16789,-1,-2,1,130.625,-39.125,-725.625
3.2818942554574613,-4.350809259658659,178.7953041546665,1343,1034,16771,-1,0,-1,132.375,-35.375,-730.375
3.229840541119843,-4.298670451859947,178.7992215898487,1207,891,16800,1,-1,0,129.875,-37.75,-727.125
3.3401221131216,-4.367289203938872,178.8031798475997,1357,1023,16770,0,0,-1,130.875,-40.5,-729.125
3.180209313248788,-4.309677250904772,178.79853737639803,1201,854,16793,-2,-1,0,129.5,-34.625,-727.375
3.2453185527456383,-4.375492661947032,178.79252116448438,1353,1033,16744,-1,0,1,132.5,-35.875,-727.5
3.181545061681428,-4.312369623521142,178.80096861432438,1197,873,16773,-3,-1,3,131.25,-37.125,-726.375
3.262202606711018,-4.347695819830118,178.80712052448297,1313,982,16766,2,-1,1,133.25,-39.0,-728.125
3.2588666070046344,-4.320651417158918,178.80637873862662,1240,963,16794,-4,-1,0,131.5,-37.375,-726.625
3.2839007743486515,-4.293175106374097,178.82218493848325,1229,900,16780,3,-2,1,133.0,-41.375,-729.5
3.3378115584111177,-4.314749550040672,178.8207114591901,1289,1031,16750,-2,0,1,131.625,-38.25,-728.625
3.1975994202881606,-4.273797350720712,178.83008907098576,1206,803,16788,-1,-3,1,131.625,-37.75,-722.625
3.274469986574325,-4.356616675956196,178.81943872464956,1367,1066,16763,0,0,0,131.125,-35.75,-729.375
3.2237282338472704,-4.3041647885284275,178.82552617873907,1212,885,16793,-3,1,0,132.375,-38.25,-726.625
3.2296413236627446,-4.345896713529654,178.8323732141346,1322,913,16780,1,0,0,129.125,-38.875,-727.25
3.2782286622356893,-4.338300881480046,178.8343944768457,1267,986,16773,-3,0,0,127.75,-38.625,-725.625
3.244091551097224,-4.354794568295002,178.84618972653783,1296,884,16788,-1,-1,2,132.125,-39.125,-723.75
3.294927596054137,-4.34977591019356,178.85061829590816,1272,986,16759,-2,0,1,131.0,-38.875,-723.5
3.3027533020524653,-4.348006069193867,178.85806380481034,1278,944,16776,-1,1,1,131.25,-39.625,-726.875
3.290991613634411,-4.35004207615171,178.8584523306519,1280,956,16773,-1,0,0,130.375,-38.25,-729.375
3.2776725375271587,-4.352931136284416,178.85917822919686,1280,949,16776,-1,-1,0,134.125,-38.0,-727.625
3.293103219381282,-4.334896571028092,178.85050823515118,1255,1028,16770,0,1,1,132.875,-35.625,-725.125
3.2474709117072105,-4.3737438167017215,178.84339524682557,1324,971,16768,-3,0,1,128.75,-35.25,-726.125
3.1761300161308874,-4.335406374855949,178.8408450825879,1233,903,16847,-2,-2,0,129.375,-35.75,-728.625
3.1899599843141213,-4.364145866056476,178.83206551492285,1309,980,16786,2,-2,-1,125.75,-35.0,-725.0
3.2900594902665015,-4.348494139411641,178.8325464684268,1272,1033,16777,-2,5,0,130.5,-38.625,-728.125
3.1702437759247646,-4.346297446297085,178.82525481052068,1274,898,16780,-5,1,0,125.625,-34.25,-728.125
3.118560631348855,-4.3501922597226015,178.8224530784314,1276,893,16787,1,-3,0,127.25,-35.0,-729.125
3.179160392165314,-4.362929791783829,178.80773659219844,1290,1057,16750,0,-1,1,123.75,-33.125,-728.25
2.9916334525799866,-4.305402118306879,178.80747634980335,1196,727,16836,4,-5,-3,125.125,-34.25,-729.625
2.909636180230579,-4.241801626801902,178.7905760286847,1178,864,16797,7,1,-2,128.125,-29.125,-727.375
3.154005119539442,-4.295179355796233,178.79400387228603,1319,1067,16765,-1,0,0,126.0,-38.375,-726.125
3.0256054391505667,-4.286669358054937,178.78642336595632,1240,833,16784,0,-4,-1,128.125,-32.5,-727.875
3.1411422191167775,-4.326020398511764,178.7659816155266,1310,1093,16776,3,-1,-1,128.75,-32.0,-727.75
3.1439681873903824,-4.31392983902999,178.75291334531644,1249,993,16752,-2,-1,0,129.75,-32.875,-726.875
3.1634419692142615,-4.298644575485558,178.76030801910903,1249,912,16775,-2,1,1,129.25,-37.625,-725.875
3.2274774446929464,-4.306399940971758,178.752837984725,1270,1029,16756,-2,-1,0,128.625,-35.375,-722.625
3.1368027809018533,-4.289248246941137,178.75052104089414,1239,881,16763,-2,0,1,131.0,-34.5,-728.0
3.2618204661276087,-4.303105354488892,178.75836069678368,1278,997,16774,1,-1,0,132.25,-39.625,-724.375
3.269321693138284,-4.277670566715494,178.7640404434197,1232,943,16803,0,0,1,132.0,-38.25,-723.125
3.316022924342454,-4.282376145554275,178.7696127025076,1260,958,16772,-1,-2,-2,129.5,-40.375,-725.625
3.308399271114886,-4.28558381951138,178.76910662332787,1262,979,16773,-3,0,1,132.625,-37.375,-724.0
3.303525406337139,-4.291310414012325,178.77348240899582,1265,948,16776,1,-1,1,130.625,-38.5,-725.125
3.2892120175548367,-4.297381794129541,178.76950314963906,1268,975,16770,0,0,0,131.75,-36.875,-729.625
3.276282892674463,-4.3055287575094505,178.77134557550724,1274,953,16783,-2,0,1,132.5,-37.625,-726.875
3.290427445150964,-4.285899400694894,178.7726300060636,1239,969,16781,-1,0,0,133.875,-38.125,-727.375
3.287391720426435,-4.293117466347222,178.77581697595514,1267,955,16775,-2,-1,1,132.75,-38.125,-726.25
3.3053325133904075,-4.280673267442713,178.77984198987443,1241,962,16776,-2,-2,0,133.125,-38.875,-723.875
3.308787211134824,-4.27850152819757,178.78366446027204,1255,959,16778,1,0,1,136.5,-38.25,-723.375
3.3248158842575792,-4.276239971937961,178.78959068183786,1258,965,16771,-2,2,1,128.625,-39.375,-725.25
3.3117269550881816,-4.28272563546541,178.78703465839874,1265,974,16779,1,0,0,132.125,-37.375,-726.75
3.2709903105319555,-4.287834608773911,178.78464698716053,1264,945,16770,-1,0,0,132.125,-36.875,-728.125
3.325901989221465,-4.27509477689629,178.7979987001336,1247,951,16773,-1,2,1,129.875,-41.25,-724.5
3.266672873949218,-4.285976039177942,178.795572267035,1267,938,16796,0,-2,1,133.625,-36.25,-725.125
3.312615667073373,-4.293213973415891,178.80447676391725,1266,956,16777,-1,-2,0,132.375,-40.375,-724.875
